dataset,variable,key_seq,order,keep,core,supp_flag
DM,STUDYID,1,1,TRUE,NA,NA
DM,DOMAIN,NA,2,TRUE,NA,NA
DM,USUBJID,2,3,TRUE,NA,NA
DM,SUBJID,NA,4,TRUE,NA,NA
DM,RFSTDTC,NA,5,FALSE,NA,NA
DM,RFENDTC,NA,6,FALSE,NA,NA
DM,RFXSTDTC,NA,7,FALSE,NA,NA
DM,RFXENDTC,NA,8,FALSE,NA,NA
DM,RFICDTC,NA,9,FALSE,NA,NA
DM,RFPENDTC,NA,10,FALSE,NA,NA
DM,DTHDTC,NA,11,FALSE,NA,NA
DM,DTHFL,NA,12,FALSE,NA,NA
DM,SITEID,NA,13,TRUE,NA,NA
DM,AGE,NA,14,FALSE,NA,NA
DM,AGEU,NA,15,FALSE,NA,NA
DM,SEX,NA,16,TRUE,NA,NA
DM,RACE,NA,17,FALSE,NA,NA
DM,ETHNIC,NA,18,FALSE,NA,NA
DM,ARMCD,NA,19,TRUE,NA,NA
DM,ARM,NA,20,TRUE,NA,NA
DM,ACTARMCD,NA,21,TRUE,NA,NA
DM,ACTARM,NA,22,TRUE,NA,NA
DM,COUNTRY,NA,23,TRUE,NA,NA
DM,DMDTC,NA,24,FALSE,NA,NA
DM,DMDY,NA,25,FALSE,NA,NA
EX,STUDYID,1,1,TRUE,NA,NA
EX,DOMAIN,NA,2,TRUE,NA,NA
EX,USUBJID,2,3,TRUE,NA,NA
EX,EXSEQ,NA,4,TRUE,NA,NA
EX,EXTRT,3,5,TRUE,NA,NA
EX,EXDOSE,NA,6,FALSE,NA,NA
EX,EXDOSU,NA,7,FALSE,NA,NA
EX,EXDOSFRM,NA,8,FALSE,NA,NA
EX,EXDOSFRQ,NA,9,FALSE,NA,NA
EX,EXROUTE,NA,10,FALSE,NA,NA
EX,VISITNUM,NA,11,FALSE,NA,NA
EX,VISIT,NA,12,FALSE,NA,NA
EX,VISITDY,NA,13,FALSE,NA,NA
EX,EPOCH,NA,14,FALSE,NA,NA
EX,EXSTDTC,4,15,FALSE,NA,NA
EX,EXENDTC,NA,16,FALSE,NA,NA
EX,EXSTDY,NA,17,FALSE,NA,NA
EX,EXENDY,NA,18,FALSE,NA,NA
AE,STUDYID,1,1,TRUE,NA,NA
AE,DOMAIN,NA,2,TRUE,NA,NA
AE,USUBJID,2,3,TRUE,NA,NA
AE,AESEQ,5,4,TRUE,NA,NA
AE,AESPID,NA,5,FALSE,NA,NA
AE,AETERM,3,6,TRUE,NA,NA
AE,AELLT,NA,7,FALSE,NA,NA
AE,AELLTCD,NA,8,FALSE,NA,NA
AE,AEDECOD,NA,9,FALSE,NA,NA
AE,AEPTCD,NA,10,FALSE,NA,NA
AE,AEHLT,NA,11,FALSE,NA,NA
AE,AEHLTCD,NA,12,FALSE,NA,NA
AE,AEHLGT,NA,13,FALSE,NA,NA
AE,AEHLGTCD,NA,14,FALSE,NA,NA
AE,AEBODSYS,NA,15,FALSE,NA,NA
AE,AEBDSYCD,NA,16,FALSE,NA,NA
AE,AESOC,NA,17,FALSE,NA,NA
AE,AESOCCD,NA,18,FALSE,NA,NA
AE,AESEV,NA,19,FALSE,NA,NA
AE,AESER,NA,20,FALSE,NA,NA
AE,AEACN,NA,21,FALSE,NA,NA
AE,AEREL,NA,22,FALSE,NA,NA
AE,AEOUT,NA,23,FALSE,NA,NA
AE,AESCAN,NA,24,FALSE,NA,NA
AE,AESCONG,NA,25,FALSE,NA,NA
AE,AESDISAB,NA,26,FALSE,NA,NA
AE,AESDTH,NA,27,FALSE,NA,NA
AE,AESHOSP,NA,28,FALSE,NA,NA
AE,AESLIFE,NA,29,FALSE,NA,NA
AE,AESOD,NA,30,FALSE,NA,NA
AE,EPOCH,NA,31,FALSE,NA,NA
AE,AEDTC,NA,32,FALSE,NA,NA
AE,AESTDTC,4,33,FALSE,NA,NA
AE,AEENDTC,NA,34,FALSE,NA,NA
AE,AEDY,NA,35,FALSE,NA,NA
AE,AESTDY,NA,36,FALSE,NA,NA
AE,AEENDY,NA,37,FALSE,NA,NA
SUPPAE,STUDYID,1,1,TRUE,NA,NA
SUPPAE,RDOMAIN,2,2,TRUE,NA,NA
SUPPAE,USUBJID,3,3,TRUE,NA,NA
SUPPAE,IDVAR,4,4,FALSE,NA,NA
SUPPAE,IDVARVAL,5,5,FALSE,NA,NA
SUPPAE,QNAM,6,6,TRUE,NA,NA
SUPPAE,QLABEL,NA,7,TRUE,NA,NA
SUPPAE,QVAL,NA,8,TRUE,NA,NA
SUPPAE,QORIG,NA,9,TRUE,NA,NA
SUPPAE,QEVAL,NA,10,FALSE,NA,NA
SUPPDM,STUDYID,1,1,TRUE,NA,NA
SUPPDM,RDOMAIN,2,2,TRUE,NA,NA
SUPPDM,USUBJID,3,3,TRUE,NA,NA
SUPPDM,IDVAR,4,4,FALSE,NA,NA
SUPPDM,IDVARVAL,5,5,FALSE,NA,NA
SUPPDM,QNAM,6,6,TRUE,NA,NA
SUPPDM,QLABEL,NA,7,TRUE,NA,NA
SUPPDM,QVAL,NA,8,TRUE,NA,NA
SUPPDM,QORIG,NA,9,TRUE,NA,NA
SUPPDM,QEVAL,NA,10,FALSE,NA,NA
AE,AETRTEM,NA,NA,NA,NA,TRUE
DM,COMPLT16,NA,NA,NA,NA,TRUE
DM,COMPLT24,NA,NA,NA,NA,TRUE
DM,COMPLT8,NA,NA,NA,NA,TRUE
DM,EFFICACY,NA,NA,NA,NA,TRUE
DM,ITT,NA,NA,NA,NA,TRUE
DM,SAFETY,NA,NA,NA,NA,TRUE
DS,ENTCRIT,NA,NA,NA,NA,TRUE
LB,LBTMSHI,NA,NA,NA,NA,TRUE
LB,ENDPOINT,NA,NA,NA,NA,TRUE
